participant_id,n_trials,n_tasks_observed,choice_valid_rate,rt_valid_rate,rt_tp_median,rt_notp_median,tp_abs_fast_ms,tp_rel_fast_pct,pass_choice,pass_rt,pass_tp,pass_overall,expected_task_count,expected_trials_total,complete_4task_60trial
Mega_project_PARTICIPANT_SESSION_2025-11-24_10h18.02.511.csv,80,2,1,0.975,287,647,360,55.64142194744977,TRUE,TRUE,TRUE,TRUE,4,240,FALSE
Mega_project_PARTICIPANT_SESSION_2025-11-24_10h18.37.978.csv,80,2,1,0.975,255.5,367,111.5,30.381471389645778,TRUE,TRUE,TRUE,TRUE,4,240,FALSE
Mega_project_PARTICIPANT_SESSION_2025-11-24_10h48.36.715.csv,80,2,1,0.9875,312,599,287,47.913188647746246,TRUE,TRUE,TRUE,TRUE,4,240,FALSE
Mega_project_PARTICIPANT_SESSION_2025-11-24_10h48.45.134.csv,80,2,1,0.925,260.5,591,330.5,55.92216582064298,TRUE,FALSE,TRUE,FALSE,4,240,FALSE
Mega_project_PARTICIPANT_SESSION_2025-11-24_10h50.23.175.csv,80,2,1,1,309.5,1319,1009.5,76.5352539802881,TRUE,TRUE,TRUE,TRUE,4,240,FALSE
Mega_project_PARTICIPANT_SESSION_2025-11-24_13h56.53.337.csv,80,2,1,0.975,275,327,52,15.902140672782874,TRUE,TRUE,TRUE,TRUE,4,240,FALSE
Mega_project_PARTICIPANT_SESSION_2025-11-24_13h57.27.412.csv,80,2,1,0.9625,240,831,591,71.11913357400722,TRUE,TRUE,TRUE,TRUE,4,240,FALSE
Mega_project_PARTICIPANT_SESSION_2025-11-24_13h57.32.663.csv,80,2,1,0.95,218,255,37,14.509803921568627,TRUE,TRUE,TRUE,TRUE,4,240,FALSE
Mega_project_PARTICIPANT_SESSION_2025-11-24_13h57.36.663.csv,80,2,1,0.875,177,735,558,75.91836734693878,TRUE,FALSE,TRUE,FALSE,4,240,FALSE
Mega_project_PARTICIPANT_SESSION_2025-11-24_13h57.48.381.csv,80,2,1,1,278.5,607,328.5,54.11861614497529,TRUE,TRUE,TRUE,TRUE,4,240,FALSE
Mega_project_PARTICIPANT_SESSION_2025-11-24_13h57.55.659.csv,80,2,1,0.9875,224,502.5,278.5,55.4228855721393,TRUE,TRUE,TRUE,TRUE,4,240,FALSE
Mega_project_PARTICIPANT_SESSION_2025-11-24_14h35.08.304.csv,80,2,1,0.9375,254,862,608,70.53364269141531,TRUE,FALSE,TRUE,FALSE,4,240,FALSE
Mega_project_PARTICIPANT_SESSION_2025-11-24_14h35.13.740.csv,80,2,1,0.975,247,646.5,399.5,61.79427687548337,TRUE,TRUE,TRUE,TRUE,4,240,FALSE
Mega_project_PARTICIPANT_SESSION_2025-11-24_14h35.45.210.csv,80,2,1,0.95,246,379.5,133.5,35.17786561264822,TRUE,TRUE,TRUE,TRUE,4,240,FALSE
Mega_project_PARTICIPANT_SESSION_2025-11-24_14h35.50.272.csv,80,2,1,0.9875,301,647,346,53.47758887171561,TRUE,TRUE,TRUE,TRUE,4,240,FALSE
Mega_project_PARTICIPANT_SESSION_2025-11-24_14h35.55.754.csv,80,2,1,0.9875,330,447,117,26.174496644295303,TRUE,TRUE,TRUE,TRUE,4,240,FALSE
Mega_project_PARTICIPANT_SESSION_2025-11-24_14h36.14.456.csv,80,2,1,0.9375,269,839,570,67.93802145411203,TRUE,FALSE,TRUE,FALSE,4,240,FALSE
Mega_project_PARTICIPANT_SESSION_2025-11-24_15h13.22.716.csv,80,2,1,1,273.5,495,221.5,44.74747474747475,TRUE,TRUE,TRUE,TRUE,4,240,FALSE
Mega_project_PARTICIPANT_SESSION_2025-11-24_15h15.37.378.csv,80,2,1,0.9625,266,703,437,62.16216216216216,TRUE,TRUE,TRUE,TRUE,4,240,FALSE
Mega_project_PARTICIPANT_SESSION_2025-11-24_15h16.20.636.csv,80,2,1,0.975,267.5,367,99.5,27.111716621253407,TRUE,TRUE,TRUE,TRUE,4,240,FALSE
Mega_project_PARTICIPANT_SESSION_2025-11-24_15h16.45.800.csv,80,2,1,0.9,252.5,639,386.5,60.485133020344286,TRUE,FALSE,TRUE,FALSE,4,240,FALSE
Mega_project_PARTICIPANT_SESSION_2025-11-24_15h17.17.620.csv,80,2,1,0.9875,319,319,0,0,TRUE,TRUE,FALSE,FALSE,4,240,FALSE
Mega_project_PARTICIPANT_SESSION_2025-11-24_15h18.39.258.csv,80,2,1,0.9875,328,1391,1063,76.41984184040258,TRUE,TRUE,TRUE,TRUE,4,240,FALSE
Mega_project_PARTICIPANT_SESSION_2025-11-24_15h54.39.683.csv,80,2,1,1,256,399,143,35.83959899749373,TRUE,TRUE,TRUE,TRUE,4,240,FALSE
Mega_project_PARTICIPANT_SESSION_2025-11-24_15h54.47.201.csv,80,2,1,0.9875,273,495,222,44.84848484848485,TRUE,TRUE,TRUE,TRUE,4,240,FALSE
Mega_project_PARTICIPANT_SESSION_2025-11-24_15h54.53.378.csv,80,2,1,0.9,235,415,180,43.373493975903614,TRUE,FALSE,TRUE,FALSE,4,240,FALSE
Mega_project_PARTICIPANT_SESSION_2025-11-24_15h55.00.190.csv,80,2,1,0.7875,223,463,240,51.83585313174946,TRUE,FALSE,TRUE,FALSE,4,240,FALSE
Mega_project_PARTICIPANT_SESSION_2025-11-24_15h55.08.707.csv,80,2,1,0.9625,265,351,86,24.501424501424502,TRUE,TRUE,TRUE,TRUE,4,240,FALSE
Mega_project_PARTICIPANT_SESSION_2025-11-24_16h35.37.508.csv,80,2,1,0.875,240.5,527,286.5,54.36432637571158,TRUE,FALSE,TRUE,FALSE,4,240,FALSE
Mega_project_PARTICIPANT_SESSION_2025-11-24_16h36.05.342.csv,80,2,1,1,342.5,695,352.5,50.719424460431654,TRUE,TRUE,TRUE,TRUE,4,240,FALSE
Mega_project_PARTICIPANT_SESSION_2025-11-24_16h36.29.296.csv,80,2,1,0.8875,234,647,413,63.83307573415765,TRUE,FALSE,TRUE,FALSE,4,240,FALSE
Mega_project_PARTICIPANT_SESSION_2025-11-24_16h36.48.413.csv,80,2,1,0.7875,174,343,169,49.27113702623907,TRUE,FALSE,TRUE,FALSE,4,240,FALSE
Mega_project_PARTICIPANT_SESSION_2025-11-24_16h37.02.72.csv,80,2,1,0.9,219.5,759,539.5,71.08036890645586,TRUE,FALSE,TRUE,FALSE,4,240,FALSE
Mega_project_PARTICIPANT_SESSION_2025-11-24_16h37.09.310.csv,80,2,1,0.9125,283,516.5,233.5,45.2081316553727,TRUE,FALSE,TRUE,FALSE,4,240,FALSE
Mega_project_PARTICIPANT_SESSION_2025-11-24_16h37.16.98.csv,80,2,1,0.825,198.5,551.5,353,64.00725294650952,TRUE,FALSE,TRUE,FALSE,4,240,FALSE
Mega_project_PARTICIPANT_SESSION_2025-11-24_16h37.22.364.csv,80,2,1,0.975,259.5,319,59.5,18.65203761755486,TRUE,TRUE,TRUE,TRUE,4,240,FALSE
Mega_project_PARTICIPANT_SESSION_2025-11-24_17h18.07.522.csv,80,2,1,1,282.5,775,492.5,63.54838709677419,TRUE,TRUE,TRUE,TRUE,4,240,FALSE
Mega_project_PARTICIPANT_SESSION_2025-11-24_17h18.13.406.csv,80,2,1,1,275.5,335,59.5,17.761194029850746,TRUE,TRUE,TRUE,TRUE,4,240,FALSE
Mega_project_PARTICIPANT_SESSION_2025-11-24_17h18.18.20.csv,80,2,1,0.9875,216,543,327,60.22099447513812,TRUE,TRUE,TRUE,TRUE,4,240,FALSE
Mega_project_PARTICIPANT_SESSION_2025-11-26_09h46.33.820.csv,80,2,1,0.975,278.5,1031,752.5,72.98739088263821,TRUE,TRUE,TRUE,TRUE,4,240,FALSE
Mega_project_PARTICIPANT_SESSION_2025-11-26_09h46.35.938.csv,80,2,1,0.975,228.5,415,186.5,44.93975903614458,TRUE,TRUE,TRUE,TRUE,4,240,FALSE
Mega_project_PARTICIPANT_SESSION_2025-11-26_10h17.44.482.csv,80,2,1,0.95,226,655,429,65.49618320610686,TRUE,TRUE,TRUE,TRUE,4,240,FALSE
Mega_project_PARTICIPANT_SESSION_2025-11-26_10h18.33.907.csv,80,2,1,0.975,311.5,1319,1007.5,76.38362395754359,TRUE,TRUE,TRUE,TRUE,4,240,FALSE
Mega_project_PARTICIPANT_SESSION_2025-11-26_10h34.27.259.csv,80,2,1,0.9125,229,343.5,114.5,33.333333333333336,TRUE,FALSE,TRUE,FALSE,4,240,FALSE
Mega_project_PARTICIPANT_SESSION_2025-11-26_10h34.29.612.csv,80,2,1,1,311.5,479,167.5,34.96868475991649,TRUE,TRUE,TRUE,TRUE,4,240,FALSE
Mega_project_PARTICIPANT_SESSION_2025-11-26_11h42.55.429.csv,80,2,1,0.9875,333,695,362,52.0863309352518,TRUE,TRUE,TRUE,TRUE,4,240,FALSE
Mega_project_PARTICIPANT_SESSION_2025-11-26_11h44.40.392.csv,80,2,1,1,280,791,511,64.60176991150442,TRUE,TRUE,TRUE,TRUE,4,240,FALSE
Mega_project_PARTICIPANT_SESSION_2025-11-26_11h45.58.873.csv,80,2,1,0.95,263,591,328,55.499153976311334,TRUE,TRUE,TRUE,TRUE,4,240,FALSE
Mega_project_PARTICIPANT_SESSION_2025-11-26_11h46.03.585.csv,80,2,1,0.8625,231,263.5,32.5,12.333965844402277,TRUE,FALSE,TRUE,FALSE,4,240,FALSE
Mega_project_PARTICIPANT_SESSION_2025-11-26_11h46.07.709.csv,80,2,1,0.9875,298,1039,741,71.31857555341675,TRUE,TRUE,TRUE,TRUE,4,240,FALSE
Mega_project_PARTICIPANT_SESSION_2025-11-26_11h48.02.587.csv,80,2,1,0.925,295,319,24,7.523510971786834,TRUE,FALSE,FALSE,FALSE,4,240,FALSE
Mega_project_PARTICIPANT_SESSION_2025-11-26_11h48.33.362.csv,80,2,1,0.9875,447,709.5,262.5,36.99788583509514,TRUE,TRUE,TRUE,TRUE,4,240,FALSE
Mega_project_PARTICIPANT_SESSION_2025-11-26_11h48.38.360.csv,80,2,1,0.975,291,886.5,595.5,67.17428087986464,TRUE,TRUE,TRUE,TRUE,4,240,FALSE
Mega_project_PARTICIPANT_SESSION_2025-11-26_11h48.43.837.csv,80,2,1,0.9875,317,1087,770,70.83716651333947,TRUE,TRUE,TRUE,TRUE,4,240,FALSE
Mega_project_PARTICIPANT_SESSION_2025-11-26_12h23.53.752.csv,80,2,1,0.875,236.5,511.5,275,53.763440860215056,TRUE,FALSE,TRUE,FALSE,4,240,FALSE
Mega_project_PARTICIPANT_SESSION_2025-11-26_12h23.56.643.csv,80,2,1,0.9375,209,1487,1278,85.94485541358439,TRUE,FALSE,TRUE,FALSE,4,240,FALSE
Mega_project_PARTICIPANT_SESSION_2025-11-26_12h23.59.236.csv,80,2,1,1,265,967,702,72.59565667011375,TRUE,TRUE,TRUE,TRUE,4,240,FALSE
Mega_project_PARTICIPANT_SESSION_2025-11-26_12h24.02.619.csv,80,2,1,0.8375,191,311,120,38.58520900321543,TRUE,FALSE,TRUE,FALSE,4,240,FALSE
Mega_project_PARTICIPANT_SESSION_2025-11-26_12h24.08.323.csv,80,2,1,0.925,253.5,319,65.5,20.53291536050157,TRUE,FALSE,TRUE,FALSE,4,240,FALSE
Mega_project_PARTICIPANT_SESSION_2025-11-26_12h24.14.436.csv,80,2,1,0.9875,278,226,-52,-23.008849557522122,TRUE,TRUE,FALSE,FALSE,4,240,FALSE
Mega_project_PARTICIPANT_SESSION_2025-11-26_12h24.58.522.csv,80,2,1,0.9625,270,623,353,56.66131621187801,TRUE,TRUE,TRUE,TRUE,4,240,FALSE
Mega_project_PARTICIPANT_SESSION_2025-11-26_13h14.35.284.csv,80,2,1,0.975,265,360,95,26.38888888888889,TRUE,TRUE,TRUE,TRUE,4,240,FALSE
Mega_project_PARTICIPANT_SESSION_2025-11-26_13h14.38.296.csv,80,2,1,0.9125,251,295,44,14.915254237288135,TRUE,FALSE,TRUE,FALSE,4,240,FALSE
Mega_project_PARTICIPANT_SESSION_2025-11-26_13h14.43.724.csv,80,2,1,1,287,447,160,35.79418344519016,TRUE,TRUE,TRUE,TRUE,4,240,FALSE
Mega_project_PARTICIPANT_SESSION_2025-11-26_13h14.50.196.csv,80,2,1,0.875,282.5,1191,908.5,76.28043660789253,TRUE,FALSE,TRUE,FALSE,4,240,FALSE
Mega_project_PARTICIPANT_SESSION_2025-11-26_13h16.18.617.csv,80,2,1,1,330,527,197,37.381404174573056,TRUE,TRUE,TRUE,TRUE,4,240,FALSE
Mega_project_PARTICIPANT_SESSION_2025-11-26_13h51.52.165.csv,80,2,1,0.8,227.5,343,115.5,33.673469387755105,TRUE,FALSE,TRUE,FALSE,4,240,FALSE
Mega_project_PARTICIPANT_SESSION_2025-11-26_13h51.56.59.csv,80,2,1,0.7375,186,383,197,51.43603133159269,TRUE,FALSE,TRUE,FALSE,4,240,FALSE
Mega_project_PARTICIPANT_SESSION_2025-11-26_13h56.52.788.csv,80,2,1,0.9125,263,487,224,45.9958932238193,TRUE,FALSE,TRUE,FALSE,4,240,FALSE
Mega_project_PARTICIPANT_SESSION_2025-11-26_15h23.21.140.csv,80,2,1,0.9625,279,975,696,71.38461538461539,TRUE,TRUE,TRUE,TRUE,4,240,FALSE
Mega_project_PARTICIPANT_SESSION_2025-11-26_15h23.23.995.csv,80,2,1,0.975,244.5,1143,898.5,78.60892388451444,TRUE,TRUE,TRUE,TRUE,4,240,FALSE
Mega_project_PARTICIPANT_SESSION_2025-11-26_15h23.31.848.csv,80,2,1,0.975,300.5,639,338.5,52.97339593114241,TRUE,TRUE,TRUE,TRUE,4,240,FALSE
Mega_project_PARTICIPANT_SESSION_2025-11-26_15h23.39.464.csv,80,2,1,0.975,266,1087,821,75.52897884084636,TRUE,TRUE,TRUE,TRUE,4,240,FALSE
Mega_project_PARTICIPANT_SESSION_2025-11-26_15h24.03.939.csv,80,2,1,0.975,277.5,823,545.5,66.28189550425273,TRUE,TRUE,TRUE,TRUE,4,240,FALSE
Mega_project_PARTICIPANT_SESSION_2025-11-26_16h34.55.292.csv,80,2,1,0.9375,242,551,309,56.079854809437386,TRUE,FALSE,TRUE,FALSE,4,240,FALSE
Mega_project_PARTICIPANT_SESSION_2025-11-26_16h34.58.255.csv,80,2,1,0.8625,163,719,556,77.32962447844228,TRUE,FALSE,TRUE,FALSE,4,240,FALSE
Mega_project_PARTICIPANT_SESSION_2025-11-26_16h35.04.300.csv,80,2,1,0.9625,230,223,-7,-3.1390134529147984,TRUE,TRUE,FALSE,FALSE,4,240,FALSE
Mega_project_PARTICIPANT_SESSION_2025-11-26_16h39.13.99.csv,80,2,1,0.9,241,271,30,11.07011070110701,TRUE,FALSE,TRUE,FALSE,4,240,FALSE
Mega_project_PARTICIPANT_SESSION_2025-11-28_10h21.34.547.csv,80,2,1,0.95,259.5,535,275.5,51.495327102803735,TRUE,TRUE,TRUE,TRUE,4,240,FALSE
Mega_project_PARTICIPANT_SESSION_2025-11-28_10h24.57.802.csv,80,2,1,0.8375,211,431,220,51.04408352668214,TRUE,FALSE,TRUE,FALSE,4,240,FALSE
Mega_project_PARTICIPANT_SESSION_2025-11-28_10h25.01.906.csv,80,2,1,0.9125,209,367,158,43.05177111716621,TRUE,FALSE,TRUE,FALSE,4,240,FALSE
Mega_project_PARTICIPANT_SESSION_2025-11-28_10h25.48.286.csv,80,2,1,0.8625,143,351,208,59.25925925925926,TRUE,FALSE,TRUE,FALSE,4,240,FALSE
Mega_project_PARTICIPANT_SESSION_2025-11-28_10h26.14.343.csv,80,2,1,1,312,735,423,57.55102040816327,TRUE,TRUE,TRUE,TRUE,4,240,FALSE
Mega_project_PARTICIPANT_SESSION_2025-11-28_10h26.43.288.csv,80,2,1,0.9875,236,359.5,123.5,34.35326842837274,TRUE,TRUE,TRUE,TRUE,4,240,FALSE
Mega_project_PARTICIPANT_SESSION_2025-11-28_10h26.49.59.csv,80,2,1,0.925,233.5,575,341.5,59.391304347826086,TRUE,FALSE,TRUE,FALSE,4,240,FALSE
Mega_project_PARTICIPANT_SESSION_2025-11-28_10h27.00.499.csv,80,2,1,0.8,222.5,399,176.5,44.235588972431074,TRUE,FALSE,TRUE,FALSE,4,240,FALSE
Mega_project_PARTICIPANT_SESSION_2025-11-28_10h27.31.809.csv,80,2,1,1,318,1007,689,68.42105263157895,TRUE,TRUE,TRUE,TRUE,4,240,FALSE
Mega_project_PARTICIPANT_SESSION_2025-11-28_13h14.34.965.csv,80,2,1,1,300,479,179,37.36951983298539,TRUE,TRUE,TRUE,TRUE,4,240,FALSE
Mega_project_PARTICIPANT_SESSION_2025-11-28_13h27.58.986.csv,80,2,1,1,301.5,831.5,530,63.74022850270595,TRUE,TRUE,TRUE,TRUE,4,240,FALSE
Mega_project_PARTICIPANT_SESSION_2025-11-28_13h54.24.367.csv,80,2,1,0.9,216.5,543,326.5,60.12891344383057,TRUE,FALSE,TRUE,FALSE,4,240,FALSE
Mega_project_PARTICIPANT_SESSION_2025-11-28_13h54.32.569.csv,80,2,1,1,312.5,975,662.5,67.94871794871794,TRUE,TRUE,TRUE,TRUE,4,240,FALSE
Mega_project_PARTICIPANT_SESSION_2025-11-28_13h54.35.900.csv,80,2,1,0.9625,252,439,187,42.59681093394077,TRUE,TRUE,TRUE,TRUE,4,240,FALSE
Mega_project_PARTICIPANT_SESSION_2025-11-28_13h54.39.904.csv,80,2,1,0.9125,275,463.5,188.5,40.668824163969795,TRUE,FALSE,TRUE,FALSE,4,240,FALSE
Mega_project_PARTICIPANT_SESSION_2025-11-28_13h54.46.921.csv,80,2,1,0.825,212.5,322.5,110,34.10852713178294,TRUE,FALSE,TRUE,FALSE,4,240,FALSE
Mega_project_PARTICIPANT_SESSION_2025-11-28_13h54.59.786.csv,80,2,1,0.9875,321,583,262,44.93996569468268,TRUE,TRUE,TRUE,TRUE,4,240,FALSE
Mega_project_PARTICIPANT_SESSION_2025-11-28_15h11.58.447.csv,80,2,1,0.975,246.5,551,304.5,55.26315789473684,TRUE,TRUE,TRUE,TRUE,4,240,FALSE
Mega_project_PARTICIPANT_SESSION_2025-11-28_15h13.11.612.csv,80,2,1,0.9875,262,863,601,69.64078794901506,TRUE,TRUE,TRUE,TRUE,4,240,FALSE
Mega_project_PARTICIPANT_SESSION_2025-11-28_15h14.21.624.csv,80,2,1,0.8875,259,319.5,60.5,18.9358372456964,TRUE,FALSE,TRUE,FALSE,4,240,FALSE
Mega_project_PARTICIPANT_SESSION_2025-11-28_15h27.19.856.csv,80,2,1,1,277.5,334.5,57,17.04035874439462,TRUE,TRUE,TRUE,TRUE,4,240,FALSE
Mega_project_PARTICIPANT_SESSION_2025-11-28_15h27.22.142.csv,80,2,1,0.875,225,271,46,16.974169741697416,TRUE,FALSE,TRUE,FALSE,4,240,FALSE
Mega_project_PARTICIPANT_SESSION_2025-11-28_15h50.44.307.csv,80,2,1,0.9875,267,575,308,53.56521739130435,TRUE,TRUE,TRUE,TRUE,4,240,FALSE
Mega_project_PARTICIPANT_SESSION_2025-11-28_16h07.06.683.csv,80,2,1,1,303,831,528,63.537906137184116,TRUE,TRUE,TRUE,TRUE,4,240,FALSE
Mega_project_PARTICIPANT_SESSION_2025-12-01_10h13.21.731.csv,80,2,1,0.975,380.5,431,50.5,11.7169373549884,TRUE,TRUE,TRUE,TRUE,4,240,FALSE
Mega_project_PARTICIPANT_SESSION_2025-12-01_10h13.27.260.csv,80,2,1,0.9875,272,504,232,46.03174603174603,TRUE,TRUE,TRUE,TRUE,4,240,FALSE
Mega_project_PARTICIPANT_SESSION_2025-12-01_10h46.04.96.csv,80,2,1,1,335,623,288,46.22792937399679,TRUE,TRUE,TRUE,TRUE,4,240,FALSE
Mega_project_PARTICIPANT_SESSION_2025-12-01_13h54.35.383.csv,80,2,1,1,271,1015,744,73.30049261083744,TRUE,TRUE,TRUE,TRUE,4,240,FALSE
Mega_project_PARTICIPANT_SESSION_2025-12-01_13h54.40.357.csv,80,2,1,0.9625,426,551,125,22.686025408348456,TRUE,TRUE,TRUE,TRUE,4,240,FALSE
Mega_project_PARTICIPANT_SESSION_2025-12-01_13h54.46.601.csv,80,2,1,0.9875,273,415,142,34.21686746987952,TRUE,TRUE,TRUE,TRUE,4,240,FALSE
Mega_project_PARTICIPANT_SESSION_2025-12-01_13h54.51.145.csv,80,2,1,0.9875,258,415,157,37.83132530120482,TRUE,TRUE,TRUE,TRUE,4,240,FALSE
Mega_project_PARTICIPANT_SESSION_2025-12-01_14h36.35.682.csv,80,2,1,0.9,307.5,711,403.5,56.75105485232068,TRUE,FALSE,TRUE,FALSE,4,240,FALSE
Mega_project_PARTICIPANT_SESSION_2025-12-01_14h36.55.458.csv,80,2,1,1,291,495.5,204.5,41.27144298688194,TRUE,TRUE,TRUE,TRUE,4,240,FALSE
Mega_project_PARTICIPANT_SESSION_2025-12-01_14h37.00.325.csv,80,2,1,0.9625,275,567,292,51.499118165784836,TRUE,TRUE,TRUE,TRUE,4,240,FALSE
Mega_project_PARTICIPANT_SESSION_2025-12-01_14h37.04.211.csv,80,2,1,0.9875,284,1423,1139,80.04216444132115,TRUE,TRUE,TRUE,TRUE,4,240,FALSE
Mega_project_PARTICIPANT_SESSION_2025-12-01_14h37.08.451.csv,80,2,1,0.8625,170,311,141,45.337620578778136,TRUE,FALSE,TRUE,FALSE,4,240,FALSE
Mega_project_PARTICIPANT_SESSION_2025-12-01_14h52.03.786.csv,80,2,1,0.925,312,687,375,54.585152838427945,TRUE,FALSE,TRUE,FALSE,4,240,FALSE
Mega_project_PARTICIPANT_SESSION_2025-12-01_15h10.02.548.csv,80,2,1,0.8625,224,215,-9,-4.186046511627907,TRUE,FALSE,FALSE,FALSE,4,240,FALSE
Mega_project_PARTICIPANT_SESSION_2025-12-01_15h10.12.614.csv,80,2,1,0.9,224,295,71,24.06779661016949,TRUE,FALSE,TRUE,FALSE,4,240,FALSE
Mega_project_PARTICIPANT_SESSION_2025-12-01_16h15.23.649.csv,80,2,1,0.9875,244,502.5,258.5,51.44278606965174,TRUE,TRUE,TRUE,TRUE,4,240,FALSE
Mega_project_PARTICIPANT_SESSION_2025-12-01_16h15.51.955.csv,80,2,1,0.975,356,551,195,35.39019963702359,TRUE,TRUE,TRUE,TRUE,4,240,FALSE
Mega_project_PARTICIPANT_SESSION_2025-12-01_17h32.04.772.csv,80,2,1,0.7625,143,959,816,85.08863399374349,TRUE,FALSE,TRUE,FALSE,4,240,FALSE
Mega_project_PARTICIPANT_SESSION_2025-12-03_16h10.01.36.csv,80,2,1,0.9375,284,607,323,53.212520593080725,TRUE,FALSE,TRUE,FALSE,4,240,FALSE
